{
  "resourceType": "Bundle",
  "id": "CareCommunicationMessageExample",
  "meta": {
    "profile": [
      "http://medcom.dk/fhir/medcom-core/StructureDefinition/medcom-care-communication-message"
    ]
  },
  "type": "message",
  "entry": [
    {
      "resource": {
        "resourceType": "MessageHeader",
        "id": "CareCommunicationMessageHeader",
        "meta": {
          "profile": [
            "http://medcom.dk/fhir/medcom-core/StructureDefinition/medcom-messaging-messageHeader"
          ]
        },
        "destination": [
          {
            "extension": [
              {
                "url": "http://medcom.dk/fhir/medcom-core/StructureDefinition/medcom-messaging-destinationUseExtension",
                "valueCoding": {
                  "code": "primary",
                  "system": "urn:medcom:destinationuse"
                }
              },
              {
                "url": "http://medcom.dk/fhir/medcom-core/StructureDefinition/medcom-messaging-destinationUseExtension",
                "valueCoding": {
                  "code": "primary",
                  "system": "urn:medcom:destinationuse"
                }
              }
            ],
            "endpoint": "unknown",
            "receiver": {
              "reference": "Organization/MessageReceiver"
            }
          }
        ],
        "eventCoding": {
          "code": "care-communication-message"
        },
        "sender": {
          "reference": "Organization/MessageSender"
        },
        "source": {
          "endpoint": "unknown"
        },
        "focus": [
          {
            "reference": "Communication/CareCommunicationContent"
          }
        ]
      },
      "fullUrl": "MessageHeader/CareCommunicationMessageHeader"
    },
    {
      "fullUrl": "Citizen/EricFlame",
      "resource": {
        "resourceType": "Patient",
        "id": "EricFlame",
        "meta": {
          "profile": [
            "http://medcom.dk/fhir/medcom-core/StructureDefinition/medcom-core-patient"
          ]
        },
        "identifier": [
          {
            "system": "urn:oid:1.2.208.176.1.2",
            "value": "0102030405"
          }
        ],
        "name": [
          {
            "use": "official",
            "given": [
              "Eric"
            ],
            "family": "Flame"
          }
        ],
        "telecom": [
          {
            "system": "phone",
            "value": "12345678"
          }
        ],
        "address": [
          {
            "line": [
              "Flammesvinget 1"
            ],
            "city": "Aarhus",
            "postalCode": "8000 C"
          }
        ],
        "managingOrganization": {
          "reference": "Organization/BurnCenter"
        }
      }
    },
    {
      "fullUrl": "Organization/BurnCenter",
      "resource": {
        "resourceType": "Organization",
        "id": "BurnCenter",
        "meta": {
          "profile": [
            "http://medcom.dk/fhir/medcom-core/StructureDefinition/medcom-core-organization"
          ]
        },
        "identifier": [
          {
            "system": "urn:oid:1.2.208.176.1.1",
            "use": "official",
            "value": "123456789012345"
          }
        ],
        "name": "Aros Burn Center"
      }
    },
    {
      "fullUrl": "Communication/CareCommunicationContent",
      "resource": {
        "resourceType": "Communication",
        "id": "CareCommunicationContent",
        "meta": {
          "profile": [
            "http://medcom.dk/fhir/medcom-core/StructureDefinition/medcom-care-communication"
          ]
        },
        "payload": [
          {
            "extension": [
              {
                "url": "http://medcom.dk/fhir/medcom-core/StructureDefinition/medcom-core-date-time-extension",
                "valueDateTime": "2020-09-28"
              },
              {
                "url": "http://medcom.dk/fhir/medcom-core/StructureDefinition/medcom-core-author-extension",
                "valueReference": {
                  "reference": "Practitioner/MichaelBurns"
                }
              }
            ],
            "content[x]": "",
            "contentString": "The burns are quite severe"
          }
        ],
        "status": "unknown",
        "category": [
          {
            "coding": [
              {
                "code": "carecoordination",
                "system": "http://medcom.dk/fhir/CodeSystem/medcom-care-communication-category-codes"
              }
            ]
          }
        ],
        "subject": {
          "reference": "Patient/EricFlame"
        },
        "encounter": {
          "reference": "Encounter/EncounterWithLPR3Identifier"
        },
        "sent": "2020-09-28T12:34:56Z"
      }
    },
    {
      "fullUrl": "Encounter/EncounterWithLPR3Identifier",
      "resource": {
        "resourceType": "Encounter",
        "id": "EncounterWithLPR3Identifier",
        "meta": {
          "profile": [
            "http://medcom.dk/fhir/medcom-core/StructureDefinition/medcom-lpr3-encounter"
          ]
        },
        "episodeOfCare": [
          {
            "identifier": {
              "system": "https://www.esundhed.dk/Registre/Landspatientsregisteret",
              "value": "12345678-1234-1234-1234-123456789012"
            }
          }
        ],
        "status": "unknown",
        "class": {
          "code": "AMB",
          "system": "http://terminology.hl7.org/CodeSystem/v3-ActCode"
        }
      }
    },
    {
      "fullUrl": "Practitioner/MichaelBurns",
      "resource": {
        "resourceType": "Practitioner",
        "id": "MichaelBurns",
        "name": [
          {
            "given": [
              "Michael"
            ],
            "family": "Burns"
          }
        ]
      }
    },
    {
      "fullUrl": "Organization/MessageReceiver",
      "resource": {
        "resourceType": "Organization",
        "id": "MessageReceiver",
        "meta": {
          "profile": [
            "http://medcom.dk/fhir/medcom-core/StructureDefinition/medcom-messaging-organization"
          ]
        },
        "identifier": [
          {
            "system": "urn:oid:1.2.208.176.1.1",
            "value": "543210987654321"
          },
          {
            "system": "urn:oid:1.3.88",
            "value": "3210987654321"
          }
        ],
        "name": "Receiver Organization"
      }
    },
    {
      "fullUrl": "Organization/MessageSender",
      "resource": {
        "resourceType": "Organization",
        "id": "MessageSender",
        "meta": {
          "profile": [
            "http://medcom.dk/fhir/medcom-core/StructureDefinition/medcom-messaging-organization"
          ]
        },
        "identifier": [
          {
            "system": "urn:oid:1.2.208.176.1.1",
            "value": "123456789012345"
          },
          {
            "system": "urn:oid:1.3.88",
            "value": "1234567890123"
          }
        ],
        "name": "Sender Organization"
      }
    }
  ],
  "timestamp": "2020-09-28T12:34:56Z"
}
